Folder: FP-M.Sc/03Roentgenreflektometrie/daten

Note: README.md
# FP-M.Sc
Fortgeschrittenen Praktikum M.Sc

test

File: roentgen_unt.uxd
; (content of file C:\DIFFDAT1\Adam_Skodras\roentgen_unt.raw)
_FILEVERSION = 2
_SAMPLE =
_+SAMPLE =
_SITE = Deutschland
_USER = Administrator
_GONIOMETER_CODE = 21
_STAGE_CODE = 19
; Goniometer : D8 theta/theta, stage : Unknown
_SAMPLE_CHANGER_CODE = 0
_ATTACHMENTS_CODE = 0
_GONIOMETER_RADIUS = 350
_FIXED_DIVSLIT = 0.6
_FIXED_SAMPLESLIT = 0
_FIXED_DETSLIT = 11.66
_MONOCHROMATOR = 0
; Incident beam monochromator : None
_THIN_FILM = N
_BETA_FILTER = Y
_FIXED_ANTISLIT = 8.34
_ANALYZER_CODE = 0
; Received beam analyzer : None
_DATEMEASURED = "09-Jun-2015 16:30:29"
_WL_UNIT = A
_WL1 = 1.5406
_WL2 = 1.54439
_WL3 = 1.39222
_WLRATIO = 0.5
_ANODE = Cu

; Data for range 1
_DRIVE = THETA
_STEPTIME = 10
_STEPSIZE = 0.005
_STEPMODE = C
_START = 0
_THETA = 0
_2THETA = 0.15
_KHI = 0
_PHI = 90
_X = 13
_Y = -5.2
_Z = -1
_DETECTOR = 5
; Detector type : Unknown
_DETECTORSLIT = out
_AUX1 = 0
_AUX2 = 0
_AUX3 = 0
_TIMESTARTED = 3
_TEMP_RATE = -1
_TEMP_DELAY = -1
_KV = 40
_MA = 35
_RANGE_WL = 1.5406
_3DPLANE = 0
_V4_COUNTERS_MASK = 4096
_V4_DRIVES_MASK = 0
_V4_ENCODERS_MASK = 0
_2THETACOUNTS = 1
; THETA  PSD
   0.0000     700658
   0.0200     482122
   0.0400     314896
   0.0600     213703
   0.0800     149360
   0.1000      95695
   0.1200      64599
   0.1400      44701
   0.1600      28147
   0.1800      12411
   0.2000       3389
   0.2200       1011
   0.2400        486
   0.2600        306
   0.2800        232
   0.3000        154
   0.3200        134
   0.3400        125
   0.3600        106
   0.3800         77
   0.4000         65
   0.4200         65
   0.4400         40
   0.4600         39
   0.4800         42
   0.5000         33
   0.5200         41
   0.5400         35
   0.5600         19
   0.5800         35
   0.6000         35
   0.6200         23
   0.6400         10
   0.6600         17
   0.6800         21
   0.7000         24
   0.7200         16
   0.7400         15
   0.7600          7
   0.7800         20
   0.8000         16
   0.8200          5
   0.8400          9
   0.8600         10
   0.8800          7
   0.9000          6
   0.9200          7
   0.9400          9
   0.9600         11
   0.9800          8
   1.0000          6
   1.0200         13
   1.0400         15
   1.0600          9
   1.0800          6
   1.1000          8
   1.1200          7
   1.1400          7
   1.1600          8
   1.1800          4
   1.2000          7
   1.2200         11
   1.2400          8
   1.2600          1
   1.2800          5
   1.3000          4
   1.3200          4
   1.3400          2
   1.3600          5
   1.3800          4
   1.4000          3
   1.4200          8
   1.4400          5
   1.4600          4
   1.4800          2
   1.5000          4
   1.5200          2
   1.5400          3
   1.5600          5
   1.5800          3
   1.6000          3
   1.6200          3
   1.6400          0
   1.6600          6
   1.6800          6
   1.7000          3
   1.7200          1
   1.7400          1
   1.7600          3
   1.7800          0
   1.8000          2
   1.8200          4
   1.8400          5
   1.8600          1
   1.8800          3
   1.9000          2
   1.9200          2
   1.9400          2
   1.9600          2
   1.9800          0
   2.0000          0
   2.0200          4
   2.0400          0
   2.0600          0
   2.0800          3
   2.1000          2
   2.1200          1
   2.1400          1
   2.1600          2
   2.1800          2
   2.2000          0
   2.2200          2
   2.2400          0
   2.2600          2
   2.2800          2
   2.3000          0
   2.3200          0
   2.3400          1
   2.3600          2
   2.3800          2
   2.4000          0
   2.4200          2
   2.4400          0
   2.4600          1
   2.4800          5
   2.5000          2
   2.5200          2
   2.5400          0
   2.5600          1
   2.5800          1
   2.6000          0
   2.6200          0
   2.6400          3
   2.6600          0
   2.6800          1
   2.7000          2
   2.7200          2
   2.7400          2
   2.7600          0
   2.7800          0
   2.8000          2
   2.8200          1
   2.8400          0
   2.8600          1
   2.8800          1
   2.9000          1
   2.9200          2
   2.9400          0
   2.9600          0
   2.9800          2
   3.0000          0
   3.0200          0
   3.0400          0
   3.0600          1
   3.0800          1
   3.1000          0
   3.1200          0
   3.1400          0
   3.1600          0
   3.1800          0
   3.2000          1
   3.2200          1
   3.2400          0
   3.2600          1
   3.2800          0
   3.3000          1
   3.3200          0
   3.3400          0
   3.3600          0
   3.3800          0
   3.4000          1
   3.4200          1
   3.4400          0
   3.4600          0
   3.4800          0
   3.5000          0
   3.5200          0
   3.5400          1
   3.5600          1
   3.5800          1
   3.6000          1
   3.6200          0
   3.6400          1
   3.6600          1
   3.6800          2
   3.7000          0
   3.7200          0
   3.7400          0
   3.7600          0
   3.7800          1
   3.8000          0
   3.8200          0
   3.8400          0
   3.8600          0
   3.8800          1
   3.9000          1
   3.9200          1
   3.9400          0
   3.9600          0
   3.9800          0
   4.0000          1
   4.0200          0
   4.0400          0
   4.0600          2
   4.0800          0
   4.1000          0
   4.1200          0
   4.1400          0
   4.1600          1
   4.1800          0
   4.2000          1
   4.2200          0
   4.2400          0
   4.2600          1
   4.2800          0
   4.3000          0
   4.3200          0
   4.3400          0
   4.3600          0
   4.3800          0
   4.4000          1
   4.4200          0
   4.4400          0
   4.4600          1
   4.4800          0
   4.5000          1
   4.5200          0
   4.5400          0
   4.5600          0
   4.5800          0
   4.6000          0
   4.6200          0
   4.6400          0
   4.6600          1
   4.6800          0
   4.7000          0
   4.7200          0
   4.7400          0
   4.7600          0
   4.7800          0
   4.8000          0
   4.8200          1
   4.8400          0
   4.8600          0
   4.8800          0
   4.9000          1
   4.9200          1
   4.9400          0
   4.9600          0
   4.9800          1
   5.0000          0